t,tick,raw0,raw1,raw2,cal0,cal1,cal2,q,ax,ay,az,gx,gy,gz,roll,pitch,yaw
1.28,621846,-54.60000228881836,-13.90000057220459,-9.300000190734863,-43.408084869384766,-11.417152404785156,4.261051177978516,0,3.2223751544952393,-0.6995624899864197,-8.989500045776367,0.03185226023197174,0.023998277261853218,-0.0440695621073246,0.0,0.0,0.0
2.69,623258,-54.400001525878906,-13.90000057220459,-9.90000057220459,-43.417789459228516,-11.338211059570312,3.90019154548645,0,3.2540626525878906,-0.6556875109672546,-8.962687492370605,-0.022689281031489372,0.024870941415429115,0.007853982038795948,0.0,0.0,0.0
4.10,624674,-54.29999923706055,-13.699999809265137,-9.40000057220459,-43.22295379638672,-11.18152141571045,4.111225605010986,0,3.2101876735687256,-0.6922500133514404,-9.138187408447266,-0.02661627158522606,-0.018762288615107536,0.027052603662014008,0.0,0.0,0.0
5.52,626082,-54.29999923706055,-13.600000381469727,-9.600000381469727,-43.27614974975586,-11.089417457580566,4.004565238952637,0,3.495375156402588,-0.6361874938011169,-9.150375366210938,-0.02356194518506527,-0.027925267815589905,0.016580628231167793,0.0,0.0,0.0
6.92,627489,-54.60000228881836,-13.90000057220459,-9.40000057220459,-43.52128982543945,-11.300622940063477,3.986095666885376,0,3.2321250438690186,-0.616687536239624,-9.060187339782715,-0.005672320257872343,0.018325956538319588,0.009162978269159794,0.0,0.0,0.0
8.33,628901,-54.29999923706055,-13.800000190734863,-8.699999809265137,-43.29316329956055,-11.170413970947266,4.98384428024292,0,3.509999990463257,-0.721500039100647,-9.321000099182129,0.024434609338641167,0.013526301831007004,-0.03839724510908127,0.0,0.0,0.0
9.73,630291,-54.5,-13.699999809265137,-8.800000190734863,-43.35292053222656,-11.196414947509766,4.6119184494018555,0,3.2662501335144043,-0.6044999957084656,-9.065062522888184,-0.02923426404595375,-0.018762288615107536,0.005235987715423107,0.0,0.0,0.0
11.15,631713,-54.10000228881836,-13.600000381469727,-9.0,-43.22848892211914,-11.191166877746582,4.904221534729004,0,3.2467501163482666,-0.6995624899864197,-9.291749954223633,-0.04581489413976669,0.034033920615911484,0.02094395086169243,0.0,0.0,0.0
12.57,633147,-54.400001525878906,-13.600000381469727,-9.199999809265137,-43.37334060668945,-11.202459335327148,4.534622669219971,0,3.178500175476074,-0.6508125066757202,-9.116250038146973,-0.009599311277270317,0.021816615015268326,0.005235987715423107,0.0,0.0,0.0
13.97,634547,-54.400001525878906,-13.90000057220459,-9.300000190734863,-43.40518569946289,-11.341597557067871,4.238954544067383,0,3.4125001430511475,-0.7873125076293945,-9.25518798828125,-0.01745329238474369,-0.011780972592532635,0.030979594215750694,0.0,0.0,0.0
15.38,635957,-54.5,-13.699999809265137,-9.300000190734863,-43.37737274169922,-11.216062545776367,4.392669677734375,0,3.3052501678466797,-0.6532500386238098,-9.17231273651123,-0.0047996556386351585,0.028797931969165802,-0.03228859230875969,0.0,0.0,0.0
16.79,637357,-54.60000228881836,-13.699999809265137,-9.199999809265137,-43.43993377685547,-11.080001831054688,4.4033284187316895,0,3.3466875553131104,-0.6629999876022339,-9.17231273651123,-0.010908307507634163,-0.004363323096185923,0.03883357718586922,0.0,0.0,0.0
18.20,638773,-54.5,-13.699999809265137,-8.800000190734863,-43.46932601928711,-11.203773498535156,4.829987525939941,0,3.315000057220459,-0.7507500052452087,-9.164999961853027,-0.02007128670811653,0.003926991019397974,0.010908307507634163,0.0,0.0,0.0
19.60,640176,-54.70000076293945,-13.699999809265137,-9.600000381469727,-43.665069580078125,-11.244263648986816,4.081401348114014,0,3.4783124923706055,-0.6483750343322754,-9.116250038146973,0.030106930062174797,0.004363323096185923,0.010908307507634163,0.0,0.0,0.0
21.02,641594,-54.60000228881836,-13.90000057220459,-9.300000190734863,-43.515193939208984,-11.24118423461914,4.640529155731201,0,3.344249963760376,-0.6581250429153442,-9.22350025177002,-0.05323254317045212,0.013526301831007004,0.054105207324028015,0.0,0.0,0.0
22.42,642986,-54.70000076293945,-13.800000190734863,-8.90000057220459,-43.52023696899414,-11.332817077636719,4.6876935958862305,0,3.227250099182129,-0.5850000381469727,-9.379500389099121,-0.0013089969288557768,0.011780972592532635,0.013526301831007004,0.0,0.0,0.0
23.84,644405,-55.0,-13.800000190734863,-8.800000190734863,-43.636844635009766,-11.156253814697266,4.80353307723999,0,3.3930001258850098,-0.6678749918937683,-9.233250617980957,0.033597588539123535,0.03228859230875969,-0.0440695621073246,0.0,0.0,0.0
25.23,645804,-54.60000228881836,-13.90000057220459,-8.199999809265137,-43.40297317504883,-11.293059349060059,5.179414749145508,0,3.2662501335144043,-0.5825625061988831,-9.221062660217285,-0.02007128670811653,-0.02007128670811653,0.039269909262657166,0.0,0.0,0.0
26.65,647211,-54.60000228881836,-13.90000057220459,-8.600000381469727,-43.35267639160156,-11.149758338928223,5.032976150512695,0,3.249187469482422,-0.6459375023841858,-9.067500114440918,0.013962633907794952,-0.006981316953897476,-0.02094395086169243,0.0,0.0,0.0
28.04,648611,-54.70000076293945,-13.800000190734863,-8.800000190734863,-43.447261810302734,-11.25422191619873,4.851492881774902,0,3.249187469482422,-0.6922500133514404,-9.104063034057617,0.006544984877109528,0.030543262138962746,-0.03796090930700302,0.0,0.0,0.0
29.44,650002,-54.79999923706055,-14.0,-9.100000381469727,-43.607181549072266,-11.343415260314941,4.509512901306152,0,3.3320624828338623,-0.687375009059906,-9.155250549316406,-0.019634954631328583,-0.005235987715423107,-0.021380282938480377,0.0,0.0,0.0
30.85,651415,-54.79999923706055,-14.0,-8.699999809265137,-43.62290954589844,-11.280914306640625,4.978514194488525,0,3.3271875381469727,-0.7556250095367432,-9.138187408447266,-0.023998277261853218,-0.021816615015268326,0.03534291684627533,0.0,0.0,0.0
32.26,652832,-54.900001525878906,-13.90000057220459,-9.100000381469727,-43.66194534301758,-11.229828834533691,4.469876289367676,0,3.38812518119812,-0.7678124904632568,-9.174750328063965,0.02007128670811653,-0.051050879061222076,-0.02094395086169243,0.0,0.0,0.0
33.68,654240,-54.400001525878906,-13.600000381469727,-8.699999809265137,-43.38893508911133,-11.184120178222656,4.935044765472412,0,3.249187469482422,-0.7093124985694885,-8.999250411987305,0.011780972592532635,-0.02050761878490448,0.042324233800172806,0.0,0.0,0.0
35.09,655668,-54.70000076293945,-13.800000190734863,-9.199999809265137,-43.47475051879883,-11.236871719360352,4.759162425994873,0,3.2321250438690186,-0.5557500123977661,-9.23812484741211,0.017016960307955742,-0.0008726646192371845,0.0008726646192371845,0.0,0.0,0.0
36.52,657082,-54.79999923706055,-14.100000381469727,-9.300000190734863,-43.53682327270508,-11.264509201049805,4.390425682067871,0,3.436875104904175,-0.6629999876022339,-9.06262493133545,0.02617993950843811,0.022689281031489372,-0.053668875247240067,0.0,0.0,0.0
37.92,658500,-54.60000228881836,-14.100000381469727,-9.0,-43.40950012207031,-11.392026901245117,4.600976467132568,0,3.3418126106262207,-0.7531875371932983,-9.291749954223633,-0.013962633907794952,0.008726646192371845,-0.0013089969288557768,0.0,0.0,0.0
39.33,659909,-54.29999923706055,-13.699999809265137,-9.100000381469727,-43.381065368652344,-11.256928443908691,4.436319351196289,0,3.1516876220703125,-0.6751875281333923,-9.160124778747559,0.009162978269159794,0.012653636746108532,-0.02007128670811653,0.0,0.0,0.0
40.73,661309,-54.60000228881836,-14.100000381469727,-9.5,-43.46535110473633,-11.462933540344238,4.176980972290039,0,3.2955000400543213,-0.6898125410079956,-9.116250038146973,-0.02007128670811653,-0.00043633230961859226,0.014398965984582901,0.0,0.0,0.0
42.14,662708,-54.5,-14.199999809265137,-9.600000381469727,-43.30998229980469,-11.414527893066406,4.314466953277588,0,3.293062686920166,-0.6678749918937683,-9.169875144958496,-0.024870941415429115,-0.017016960307955742,0.010035643354058266,0.0,0.0,0.0
43.54,664106,-54.29999923706055,-14.300000190734863,-9.300000190734863,-43.201900482177734,-11.569172859191895,4.355538368225098,0,3.1736249923706055,-0.6240000128746033,-9.033374786376953,-0.013962633907794952,0.02967059798538685,0.010908307507634163,0.0,0.0,0.0
44.95,665520,-54.60000228881836,-13.90000057220459,-9.40000057220459,-43.52028274536133,-11.366610527038574,4.393957138061523,0,3.149250030517578,-0.5289375185966492,-9.111374855041504,-0.030979594215750694,0.02923426404595375,-0.001745329238474369,0.0,0.0,0.0
46.35,666919,-54.60000228881836,-14.100000381469727,-8.800000190734863,-43.39720153808594,-11.46130084991455,4.902377128601074,0,3.2979376316070557,-0.6118125319480896,-9.089437484741211,0.016144296154379845,-0.04363323003053665,0.012217304669320583,0.0,0.0,0.0
47.74,668309,-54.5,-14.0,-8.90000057220459,-43.41938781738281,-11.417977333068848,4.731781482696533,0,3.2979376316070557,-0.7775624990463257,-8.977313041687012,-0.009599311277270317,0.00043633230961859226,0.030979594215750694,0.0,0.0,0.0
49.15,669718,-54.29999923706055,-14.0,-9.699999809265137,-43.27513885498047,-11.48392391204834,4.063061237335205,0,3.2613749504089355,-0.6118125319480896,-9.018750190734863,-0.015707964077591896,-0.0047996556386351585,0.03621558099985123,0.0,0.0,0.0
50.55,671118,-54.5,-14.199999809265137,-9.40000057220459,-43.336849212646484,-11.489357948303223,4.18971586227417,0,3.2808749675750732,-0.6629999876022339,-9.306375503540039,0.008290314115583897,0.014398965984582901,-0.013962633907794952,0.0,0.0,0.0
51.95,672524,-54.29999923706055,-13.90000057220459,-9.40000057220459,-43.32768249511719,-11.35002613067627,4.376619815826416,0,3.256500005722046,-0.6922500133514404,-9.184499740600586,0.02312561310827732,0.02661627158522606,-0.05017821490764618,0.0,0.0,0.0
53.36,673929,-54.29999923706055,-14.100000381469727,-9.0,-43.270267486572266,-11.490405082702637,4.520444393157959,0,3.3710625171661377,-0.721500039100647,-9.121125221252441,-0.02050761878490448,0.02661627158522606,0.019198622554540634,0.0,0.0,0.0
54.78,675342,-54.70000076293945,-13.90000057220459,-9.199999809265137,-43.43181228637695,-11.33669662475586,4.581559658050537,0,3.1663124561309814,-0.5435625314712524,-9.199125289916992,0.012653636746108532,-0.021816615015268326,0.024434609338641167,0.0,0.0,0.0
56.19,676759,-54.29999923706055,-13.699999809265137,-9.699999809265137,-43.31937026977539,-11.271709442138672,3.9122047424316406,0,3.2833125591278076,-0.6459375023841858,-9.052875518798828,0.019634954631328583,0.018762288615107536,-0.036651913076639175,0.0,0.0,0.0
57.60,678166,-54.5,-14.0,-9.90000057220459,-43.36885452270508,-11.39606761932373,4.045942306518555,0,3.3247501850128174,-0.7093124985694885,-9.20887565612793,-0.008726646192371845,-0.013526301831007004,0.010471975430846214,0.0,0.0,0.0
59.01,679583,-54.5,-13.90000057220459,-8.699999809265137,-43.38463592529297,-11.377699851989746,4.874020576477051,0,3.2955000400543213,-0.7531875371932983,-9.111374855041504,-0.010908307507634163,0.016580628231167793,0.013962633907794952,0.0,0.0,0.0
60.41,680991,-54.60000228881836,-14.199999809265137,-9.699999809265137,-43.489471435546875,-11.411895751953125,3.9616897106170654,0,3.3832499980926514,-0.7726874947547913,-9.199125289916992,-0.014835298992693424,0.014398965984582901,-0.030543262138962746,0.0,0.0,0.0
61.82,682393,-54.5,-13.699999809265137,-9.600000381469727,-43.37440490722656,-11.197847366333008,4.211574077606201,0,3.373500108718872,-0.5630624890327454,-9.099187850952148,0.04974188283085823,-0.02007128670811653,0.00043633230961859226,0.0,0.0,0.0
63.23,683807,-54.20000076293945,-13.90000057220459,-9.699999809265137,-43.36857604980469,-11.37253475189209,3.8347575664520264,0,3.2735626697540283,-0.7385625243186951,-9.128437995910645,-0.04145156964659691,-0.009162978269159794,0.037088245153427124,0.0,0.0,0.0
64.62,685199,-54.70000076293945,-14.100000381469727,-10.0,-43.476646423339844,-11.430156707763672,3.964230537414551,0,3.2467501163482666,-0.6605625152587891,-9.318562507629395,-0.04581489413976669,0.010471975430846214,0.03752457723021507,0.0,0.0,0.0
66.03,686602,-54.5,-13.90000057220459,-9.100000381469727,-43.41762924194336,-11.341646194458008,4.426495552062988,0,3.2394375801086426,-0.6508125066757202,-9.313687324523926,-0.015271631069481373,0.03534291684627533,-0.0008726646192371845,0.0,0.0,0.0
67.45,688014,-54.400001525878906,-13.800000190734863,-9.199999809265137,-43.45484924316406,-11.244169235229492,4.527681827545166,0,3.3540000915527344,-0.6849375367164612,-9.091875076293945,0.03534291684627533,0.024870941415429115,-0.04625122621655464,0.0,0.0,0.0
68.85,689426,-54.400001525878906,-14.0,-9.600000381469727,-43.36137390136719,-11.368496894836426,4.084756851196289,0,3.3247501850128174,-0.6532500386238098,-9.086999893188477,-0.003926991019397974,-0.016580628231167793,0.021380282938480377,0.0,0.0,0.0
70.25,690819,-54.400001525878906,-13.800000190734863,-9.199999809265137,-43.32609558105469,-11.27570629119873,4.314967155456543,0,3.190687656402588,-0.6044999957084656,-9.118687629699707,-0.006108652334660292,-0.036651913076639175,0.027052603662014008,0.0,0.0,0.0
71.64,692219,-54.400001525878906,-13.800000190734863,-8.90000057220459,-43.35268783569336,-11.320268630981445,4.863502502441406,0,3.2760000228881836,-0.6459375023841858,-9.035812377929688,0.03228859230875969,0.005672320257872343,-0.03272492438554764,0.0,0.0,0.0
73.05,693620,-54.5,-14.100000381469727,-9.90000057220459,-43.41899871826172,-11.362071990966797,3.9029510021209717,0,3.3515625,-0.6849375367164612,-9.184499740600586,-0.018325956538319588,0.019198622554540634,-0.008290314115583897,0.0,0.0,0.0
74.46,695024,-54.79999923706055,-14.100000381469727,-9.300000190734863,-43.569095611572266,-11.382978439331055,4.316039562225342,0,3.3125624656677246,-0.6922500133514404,-9.1771879196167,0.00043633230961859226,-0.009162978269159794,0.015707964077591896,0.0,0.0,0.0
75.87,696444,-54.60000228881836,-14.0,-9.600000381469727,-43.50434494018555,-11.413345336914062,4.047224044799805,0,3.183375120162964,-0.5971875190734863,-9.128437995910645,-0.006108652334660292,0.004363323096185923,-0.00043633230961859226,0.0,0.0,0.0
77.28,697849,-54.10000228881836,-13.800000190734863,-9.699999809265137,-43.145633697509766,-11.318833351135254,4.162143707275391,0,3.249187469482422,-0.6313124895095825,-9.206438064575195,0.0449422262609005,-0.006981316953897476,-0.02967059798538685,0.0,0.0,0.0
78.70,699262,-54.400001525878906,-13.90000057220459,-9.100000381469727,-43.32976531982422,-11.22220230102539,4.573599815368652,0,3.2174999713897705,-0.6605625152587891,-9.033374786376953,0.014398965984582901,-0.022252947092056274,0.015707964077591896,0.0,0.0,0.0
80.11,700679,-54.29999923706055,-13.699999809265137,-9.5,-43.3427619934082,-11.14806842803955,4.068207740783691,0,3.2028751373291016,-0.6849375367164612,-9.267374992370605,-0.02312561310827732,-0.0021816615480929613,0.014398965984582901,0.0,0.0,0.0
81.51,702086,-54.400001525878906,-13.90000057220459,-8.800000190734863,-43.40966033935547,-11.263323783874512,4.7278151512146,0,3.26381254196167,-0.6629999876022339,-9.099187850952148,0.051050879061222076,0.01788962446153164,-0.08377580344676971,0.0,0.0,0.0
82.94,703504,-54.5,-14.0,-8.800000190734863,-43.43950653076172,-11.387907981872559,4.696070671081543,0,3.2150626182556152,-0.7020000219345093,-9.072375297546387,-0.012217304669320583,-0.00043633230961859226,0.03490658476948738,0.0,0.0,0.0
84.35,704919,-54.60000228881836,-13.90000057220459,-9.300000190734863,-43.423553466796875,-11.357629776000977,4.4381608963012695,0,3.402750015258789,-0.7117500305175781,-9.245437622070312,-0.012653636746108532,0.013962633907794952,0.005235987715423107,0.0,0.0,0.0
85.74,706307,-54.29999923706055,-13.90000057220459,-9.199999809265137,-43.255149841308594,-11.302858352661133,4.624340057373047,0,3.2662501335144043,-0.6898125410079956,-9.179625511169434,-0.004363323096185923,0.010471975430846214,-0.02094395086169243,0.0,0.0,0.0
87.15,707720,-54.5,-13.800000190734863,-9.199999809265137,-43.361480712890625,-11.259919166564941,4.395676136016846,0,3.336937665939331,-0.6995624899864197,-9.12600040435791,-0.003054326167330146,-0.003054326167330146,-0.017016960307955742,0.0,0.0,0.0
88.55,709121,-54.5,-13.800000190734863,-9.5,-43.45833206176758,-11.217443466186523,4.207857608795166,0,3.38812518119812,-0.609375,-9.447750091552734,-0.008290314115583897,-0.01788962446153164,-0.011780972592532635,0.0,0.0,0.0
89.95,710526,-54.400001525878906,-13.699999809265137,-9.199999809265137,-43.399436950683594,-11.181329727172852,4.388399600982666,0,3.163875102996826,-0.7263750433921814,-9.123562812805176,-0.02967059798538685,-0.024870941415429115,0.05017821490764618,0.0,0.0,0.0
91.36,711940,-54.5,-13.600000381469727,-9.0,-43.4935302734375,-11.162065505981445,4.567960739135742,0,3.48075008392334,-0.8945625424385071,-9.274687767028809,0.012653636746108532,0.012653636746108532,-0.03228859230875969,0.0,0.0,0.0
92.78,713343,-54.79999923706055,-14.100000381469727,-9.0,-43.4879035949707,-11.375774383544922,4.826806545257568,0,3.3491251468658447,-0.6483750343322754,-9.021187782287598,0.027052603662014008,-0.017016960307955742,0.007853982038795948,0.0,0.0,0.0
94.19,714758,-54.10000228881836,-13.800000190734863,-9.100000381469727,-43.209136962890625,-11.393607139587402,4.3742780685424805,0,3.2321250438690186,-0.6727499961853027,-9.182063102722168,-0.006108652334660292,0.019198622554540634,-0.015271631069481373,0.0,0.0,0.0
95.60,716171,-54.60000228881836,-14.0,-9.90000057220459,-43.44516372680664,-11.461167335510254,3.8164315223693848,0,3.524625062942505,-0.6971250176429749,-9.147937774658203,-0.02007128670811653,0.027052603662014008,-0.01788962446153164,0.0,0.0,0.0
97.00,717576,-54.400001525878906,-14.199999809265137,-9.5,-43.288936614990234,-11.549277305603027,3.9966986179351807,0,3.3101251125335693,-0.6361874938011169,-9.155250549316406,-0.019198622554540634,0.010471975430846214,-0.016144296154379845,0.0,0.0,0.0
98.42,718993,-54.400001525878906,-13.800000190734863,-9.699999809265137,-43.2577018737793,-11.27871322631836,3.8076388835906982,0,3.2150626182556152,-0.6337500214576721,-9.06262493133545,-0.0047996556386351585,-0.024870941415429115,0.03883357718586922,0.0,0.0,0.0
99.83,720394,-54.900001525878906,-14.0,-9.699999809265137,-43.4468879699707,-11.272417068481445,3.881016969680786,0,3.3052501678466797,-0.7434375286102295,-9.160124778747559,0.014835298992693424,0.01745329238474369,-0.04101523756980896,0.0,0.0,0.0
101.24,721810,-54.60000228881836,-13.90000057220459,-9.0,-43.44162368774414,-11.147854804992676,4.696381568908691,0,3.300374984741211,-0.6386250257492065,-9.10893726348877,-0.007417649496346712,-0.007417649496346712,0.015707964077591896,0.0,0.0,0.0
