t,tick,raw0,raw1,raw2,cal0,cal1,cal2,q,ax,ay,az,gx,gy,gz,roll,pitch,yaw
1.28,484141,-1.8000000715255737,41.79999923706055,-50.900001525878906,7.8930816650390625,43.08659362792969,-37.92026138305664,0,7.015125274658203,-6.456937789916992,2.0694375038146973,-0.0026179938577115536,0.0047996556386351585,-0.0026179938577115536,108.44896535110483,46.10479852440125,358.2860255576884
2.70,485573,-1.7000000476837158,41.900001525878906,-50.900001525878906,7.929520606994629,43.242496490478516,-38.26474380493164,0,6.983437538146973,-6.432562828063965,2.0718750953674316,-0.0013089969288557768,0.004363323096185923,-0.003054326167330146,108.40378387305526,46.097739743215364,359.62200662813893
4.10,486969,-2.1000001430511475,42.10000228881836,-50.79999923706055,7.6393351554870605,43.374420166015625,-37.99880599975586,0,7.0078125,-6.459374904632568,2.0694375038146973,-0.00043633230961859226,0.005672320257872343,-0.003054326167330146,108.38247023158561,46.09176568813669,0.8477169279500956
5.50,488367,-2.1000001430511475,42.20000076293945,-50.79999923706055,7.661625385284424,43.30247497558594,-38.333030700683594,0,7.010250091552734,-6.461812496185303,2.088937520980835,0.0,0.004363323096185923,-0.0008726646192371845,108.36286331019566,46.08987264073584,1.9198327578375998
6.90,489767,-1.5,41.79999923706055,-50.900001525878906,8.053627014160156,43.0339469909668,-38.23788070678711,0,6.980999946594238,-6.437437534332275,2.081624984741211,-0.0026179938577115536,0.004363323096185923,-0.003054326167330146,108.33816903914132,46.0821245800898,2.9424745098099416
8.29,491160,-1.5,41.900001525878906,-51.0,8.083576202392578,43.047306060791016,-38.20096206665039,0,6.998062610626221,-6.456937789916992,2.081624984741211,-0.0021816615480929613,0.0026179938577115536,-0.003054326167330146,108.32279404580429,46.08073146496269,3.966290764530728
9.68,492547,-1.600000023841858,41.900001525878906,-50.70000076293945,8.0804443359375,43.20799255371094,-37.9675178527832,0,6.990750312805176,-6.454500198364258,2.0767500400543213,-0.003054326167330146,0.003054326167330146,-0.003490658476948738,108.31154920771591,46.08209965449843,4.890125338278089
11.06,493937,-1.399999976158142,41.79999923706055,-50.79999923706055,8.144440650939941,43.0885124206543,-38.137393951416016,0,6.995625019073486,-6.469125270843506,2.0767500400543213,-0.003926991019397974,0.003490658476948738,-0.0008726646192371845,108.30503484892326,46.088362040489216,5.8548018565427205
12.46,495329,-1.600000023841858,42.10000228881836,-51.400001525878906,8.027260780334473,43.19549560546875,-38.14839172363281,0,6.993187427520752,-6.452062606811523,2.0913751125335693,0.001745329238474369,0.004363323096185923,-0.003490658476948738,108.29344177211811,46.09784101725133,6.794936028322826
13.85,496718,-1.5,41.900001525878906,-50.900001525878906,8.059684753417969,43.07951736450195,-38.038272857666016,0,7.0175628662109375,-6.459374904632568,2.096250057220459,0.0026179938577115536,0.005235987715423107,-0.003926991019397974,108.28458189212283,46.09695622823959,7.754100549794304
15.26,498129,-1.600000023841858,41.900001525878906,-51.10000228881836,8.11571216583252,43.135955810546875,-38.07159423828125,0,6.995625019073486,-6.4447503089904785,2.0791876316070557,-0.003490658476948738,0.0047996556386351585,-0.005235987715423107,108.28316553243067,46.10536637708623,8.725280667240739
16.65,499525,-1.399999976158142,42.0,-50.79999923706055,8.157196044921875,43.17815399169922,-38.2076416015625,0,6.988312721252441,-6.4447503089904785,2.1011250019073486,-0.0047996556386351585,0.003490658476948738,-0.0026179938577115536,108.26322756106674,46.108119713772986,9.71107423032047
18.04,500911,-1.5,41.70000076293945,-51.400001525878906,8.164013862609863,43.01427459716797,-38.332916259765625,0,7.0078125,-6.459374904632568,2.0694375038146973,-0.006981316953897476,0.0021816615480929613,0.0021816615480929613,108.24347310118944,46.103494144960685,10.736961271388294
19.45,502312,-1.600000023841858,41.900001525878906,-50.79999923706055,8.075298309326172,43.08457565307617,-38.186912536621094,0,7.005374908447266,-6.459374904632568,2.103562593460083,-0.003490658476948738,0.00043633230961859226,-0.0008726646192371845,108.13554904387905,46.08660856127856,11.643440070589376
20.86,503724,-1.7000000476837158,42.0,-50.900001525878906,7.935140132904053,43.24154281616211,-38.19764709472656,0,7.012687683105469,-6.434999942779541,2.110875129699707,0.02094395086169243,0.024434609338641167,-0.013089969754219055,107.98947733852665,46.150731391739725,12.508765243201786
22.26,505134,-1.600000023841858,41.70000076293945,-51.0,8.001822471618652,43.051551818847656,-38.10930633544922,0,6.939562797546387,-6.417937755584717,2.081624984741211,0.005672320257872343,0.009599311277270317,-0.006981316953897476,107.97540638516415,46.16534687636885,13.338558683275332
23.67,506539,-1.7000000476837158,41.79999923706055,-51.5,8.043763160705566,43.07379913330078,-38.65940856933594,0,6.990750312805176,-6.442312717437744,2.088937520980835,-0.003490658476948738,0.003490658476948738,-0.006981316953897476,107.9528535257672,46.170753573893926,14.19735983484793
25.10,507963,-1.8000000715255737,41.79999923706055,-50.5,7.933652877807617,43.095367431640625,-37.99262619018555,0,6.990750312805176,-6.464250087738037,2.0499374866485596,0.003054326167330146,0.007853982038795948,0.0,107.97307382446216,46.171805921664024,15.125319542015983
26.49,509361,-1.600000023841858,41.79999923706055,-51.20000076293945,8.029345512390137,42.93173599243164,-38.359954833984375,0,7.005374908447266,-6.452062606811523,2.067000150680542,-0.0013089969288557768,0.003926991019397974,-0.00043633230961859226,107.96324114458568,46.162046642705974,16.05269200369989
27.87,510741,-1.600000023841858,41.60000228881836,-51.10000228881836,8.089032173156738,42.929080963134766,-38.464786529541016,0,6.973687648773193,-6.442312717437744,2.067000150680542,-0.00043633230961859226,0.0047996556386351585,-0.006981316953897476,107.97245479113217,46.16139162505033,16.915164146487573
29.27,512139,-1.600000023841858,41.900001525878906,-50.900001525878906,8.05309009552002,43.00245666503906,-38.185829162597656,0,6.985875129699707,-6.4447503089904785,2.0645625591278076,-0.0026179938577115536,0.004363323096185923,-0.004363323096185923,107.96705244445499,46.156816352226315,17.695992216988024
30.68,513550,-1.7000000476837158,41.900001525878906,-51.60000228881836,7.99711799621582,43.04983901977539,-38.59740447998047,0,7.000500202178955,-6.469125270843506,2.0475001335144043,-0.003490658476948738,0.0021816615480929613,-0.0013089969288557768,107.94239441655738,46.16006866982565,18.44481760717504
32.09,514959,-1.7000000476837158,42.0,-51.0,8.034102439880371,43.243499755859375,-38.447471618652344,0,7.000500202178955,-6.43987512588501,2.059687614440918,-0.0047996556386351585,0.001745329238474369,-0.00043633230961859226,107.94549487610827,46.151487648899824,19.17629446071053
33.50,516361,-1.5,41.79999923706055,-50.400001525878906,8.076203346252441,43.1436653137207,-37.83797073364258,0,6.990750312805176,-6.442312717437744,2.0840625762939453,0.0008726646192371845,0.003490658476948738,-0.00043633230961859226,107.93284956612551,46.14124148693455,19.859392685341433
34.91,517775,-1.3000000715255737,41.79999923706055,-50.10000228881836,8.23926067352295,43.018043518066406,-37.46626663208008,0,6.985875129699707,-6.442312717437744,2.0645625591278076,-0.0021816615480929613,0.0047996556386351585,-0.00043633230961859226,107.91131281199283,46.12813549020916,20.524223672136404
36.32,519186,-1.8000000715255737,41.79999923706055,-51.20000076293945,7.96592903137207,43.01754379272461,-38.13199996948242,0,6.998062610626221,-6.4666876792907715,2.0645625591278076,-0.004363323096185923,0.003926991019397974,-0.007417649496346712,107.90381880673964,46.1083889249444,21.17667938123911
37.72,520588,-1.600000023841858,41.79999923706055,-51.29999923706055,8.122830390930176,43.0759391784668,-38.472896575927734,0,6.980999946594238,-6.442312717437744,2.0864999294281006,-0.003490658476948738,0.0047996556386351585,-0.007417649496346712,107.88684004477798,46.11502609327068,21.80583585283433
39.13,522003,-1.5,42.10000228881836,-51.10000228881836,8.22527027130127,43.22191619873047,-38.20376968383789,0,7.000500202178955,-6.454500198364258,2.0694375038146973,0.0008726646192371845,0.004363323096185923,-0.006108652334660292,107.85275993134674,46.12312582230856,22.39708254209855
40.54,523404,-1.7000000476837158,41.900001525878906,-50.79999923706055,7.9177565574646,43.131683349609375,-38.14644241333008,0,6.993187427520752,-6.454500198364258,2.0767500400543213,-0.0047996556386351585,0.0008726646192371845,-0.0013089969288557768,107.83777634426707,46.12216746202818,22.982388734077684
41.93,524800,-1.8000000715255737,41.79999923706055,-51.0,7.837034702301025,43.22043228149414,-38.33551025390625,0,7.0078125,-6.452062606811523,2.0864999294281006,-0.001745329238474369,0.003054326167330146,-0.008290314115583897,107.8024270547498,46.14259925554286,23.41672666838214
43.32,526194,-1.5,42.10000228881836,-51.29999923706055,8.089377403259277,43.39788055419922,-38.283878326416016,0,6.998062610626221,-6.4666876792907715,2.0621249675750732,-0.003054326167330146,0.001745329238474369,-0.003490658476948738,107.82954233541376,46.146557151968715,23.919606687258902
44.74,527607,-1.7000000476837158,42.20000076293945,-51.10000228881836,7.9557576179504395,43.48003387451172,-38.366188049316406,0,7.000500202178955,-6.454500198364258,2.0840625762939453,-0.0008726646192371845,0.0047996556386351585,-0.0021816615480929613,107.83989896606306,46.15628191347811,24.380870342708686
46.14,529003,-1.600000023841858,42.400001525878906,-50.400001525878906,7.915489673614502,43.66020965576172,-37.919212341308594,0,7.000500202178955,-6.454500198364258,2.0621249675750732,-0.005672320257872343,0.003054326167330146,-0.0047996556386351585,107.83493004815459,46.16914474992709,24.85632060068598
47.54,530402,-1.600000023841858,42.60000228881836,-51.0,7.965748310089111,43.684627532958984,-38.35330581665039,0,7.0078125,-6.452062606811523,2.074312448501587,-0.00043633230961859226,0.005235987715423107,-0.003926991019397974,107.8443925444669,46.158907343105525,25.4981382640013
48.94,531808,-1.7000000476837158,42.10000228881836,-51.60000228881836,7.917576789855957,43.397247314453125,-38.48402786254883,0,7.0078125,-6.461812496185303,2.0694375038146973,-0.005235987715423107,0.0026179938577115536,0.00043633230961859226,107.86862201809865,46.13469674367971,26.24324086943141
50.34,533213,-1.7000000476837158,42.10000228881836,-51.5,7.827699661254883,43.40283966064453,-38.6760139465332,0,6.995625019073486,-6.43987512588501,2.081624984741211,-0.0008726646192371845,0.006981316953897476,-0.0026179938577115536,107.88655826852353,46.12207555086463,26.983821440759943
51.73,534605,-1.600000023841858,42.29999923706055,-51.10000228881836,7.992030620574951,43.43097686767578,-38.430091857910156,0,7.012687683105469,-6.447187423706055,2.067000150680542,-0.0008726646192371845,0.006981316953897476,-0.0021816615480929613,107.89502915409751,46.1169806112364,27.69002854706102
53.14,536013,-1.7000000476837158,41.900001525878906,-51.0,7.975231647491455,43.19091796875,-38.31370544433594,0,7.000500202178955,-6.454500198364258,2.0767500400543213,-0.0021816615480929613,0.006544984877109528,-0.001745329238474369,107.91870855846011,46.09961914037125,28.315873092318085
54.54,537411,-1.600000023841858,42.20000076293945,-51.400001525878906,8.104547500610352,43.29965591430664,-38.316612243652344,0,6.995625019073486,-6.4447503089904785,2.0864999294281006,0.0013089969288557768,0.008290314115583897,-0.005235987715423107,107.94269222086817,46.075261082280555,28.907325358600882
55.92,538792,-1.7000000476837158,42.29999923706055,-51.10000228881836,7.944634914398193,43.4240608215332,-38.40530776977539,0,6.995625019073486,-6.447187423706055,2.088937520980835,-0.003054326167330146,0.004363323096185923,-0.0047996556386351585,107.95677333947434,46.05529131190305,29.452109693215377
57.32,540190,-1.7000000476837158,42.0,-51.20000076293945,7.947587490081787,43.28066635131836,-38.32171630859375,0,7.015125274658203,-6.456937789916992,2.054812431335449,0.003054326167330146,0.008726646192371845,-0.006981316953897476,107.97886101605754,46.047870178022556,29.971420856853527
58.72,541591,-1.399999976158142,42.29999923706055,-51.10000228881836,8.22119140625,43.35792922973633,-38.2338752746582,0,6.980999946594238,-6.427687644958496,2.0645625591278076,-0.0026179938577115536,0.003490658476948738,0.001745329238474369,107.99933118418716,46.047984999900585,30.466062722712316
60.12,542992,-1.3000000715255737,42.0,-50.400001525878906,8.395511627197266,43.21506118774414,-37.80012512207031,0,6.980999946594238,-6.456937789916992,2.0840625762939453,-0.001745329238474369,0.003490658476948738,-0.0047996556386351585,108.03309532061915,46.04691564234282,30.960657763704425
61.51,544381,-1.2000000476837158,41.79999923706055,-51.400001525878906,8.37496566772461,43.129459381103516,-38.546077728271484,0,6.993187427520752,-6.442312717437744,2.067000150680542,-0.004363323096185923,0.001745329238474369,-0.0021816615480929613,108.05054210693706,46.041770715908505,31.421012981167927
62.90,545771,-1.3000000715255737,41.900001525878906,-51.400001525878906,8.331600189208984,43.0695915222168,-38.398780822753906,0,6.978562831878662,-6.447187423706055,2.0840625762939453,-0.003054326167330146,0.003054326167330146,-0.0008726646192371845,108.0750282485342,46.049712255996084,31.865048685902323
64.30,547173,-1.2000000476837158,41.900001525878906,-51.10000228881836,8.329833030700684,43.13438034057617,-38.287288665771484,0,7.029750347137451,-6.47156286239624,2.074312448501587,-0.005235987715423107,0.0047996556386351585,-0.0008726646192371845,108.10093460013215,46.046520732996875,32.289820183582705
65.70,548571,-1.100000023841858,41.79999923706055,-50.60000228881836,8.476694107055664,43.071754455566406,-37.90602493286133,0,6.993187427520752,-6.447187423706055,2.0767500400543213,-0.003926991019397974,0.0047996556386351585,-0.001745329238474369,108.12503005557305,46.052926978958276,32.70257311711116
67.10,549972,-1.3000000715255737,41.70000076293945,-51.400001525878906,8.382959365844727,42.96002960205078,-38.57087326049805,0,7.010250091552734,-6.4447503089904785,2.0718750953674316,-0.003490658476948738,0.006981316953897476,0.0,108.13304527876174,46.06390461614203,33.09947824140148
68.50,551372,-1.2000000476837158,42.0,-51.29999923706055,8.365489959716797,43.212520599365234,-38.65297317504883,0,7.005374908447266,-6.456937789916992,2.067000150680542,-0.003490658476948738,0.006981316953897476,-0.001745329238474369,108.15319221910417,46.06856482416651,33.49672824084545
69.90,552772,-1.5,41.70000076293945,-51.0,8.249174118041992,43.036659240722656,-38.44348907470703,0,7.0029377937316895,-6.456937789916992,2.0913751125335693,-0.006544984877109528,0.006108652334660292,0.0,108.17399502985683,46.06615956493627,33.89090890368523
71.30,554172,-1.2000000476837158,42.20000076293945,-51.400001525878906,8.358285903930664,43.38185119628906,-38.71452713012695,0,7.000500202178955,-6.43987512588501,2.067000150680542,0.0,0.0047996556386351585,-0.003926991019397974,108.19370275043593,46.06609898513039,34.2879191260138
72.70,555572,-1.2000000476837158,42.20000076293945,-51.60000228881836,8.483235359191895,43.30522155761719,-38.648162841796875,0,6.993187427520752,-6.452062606811523,2.088937520980835,-0.0008726646192371845,0.006544984877109528,-0.004363323096185923,108.20582414087205,46.06895235516759,34.67577959978096
74.10,556971,-1.2000000476837158,41.70000076293945,-50.79999923706055,8.413862228393555,43.08058166503906,-38.218814849853516,0,6.993187427520752,-6.452062606811523,2.088937520980835,-0.0026179938577115536,0.0047996556386351585,-0.0013089969288557768,108.2336563203106,46.064809367545855,35.07864726907876
75.50,558372,-1.2000000476837158,42.0,-51.29999923706055,8.412668228149414,43.12180709838867,-38.57329177856445,0,7.000500202178955,-6.452062606811523,2.081624984741211,-0.0047996556386351585,0.0047996556386351585,0.0008726646192371845,108.253666719914,46.06719432897373,35.48238868233755
76.89,559762,-1.100000023841858,41.900001525878906,-51.79999923706055,8.40134048461914,43.0734977722168,-39.12272644042969,0,6.990750312805176,-6.454500198364258,2.1011250019073486,-0.006981316953897476,0.004363323096185923,-0.0008726646192371845,108.2704661989879,46.07484117676345,35.8801535066718
78.29,561161,-1.3000000715255737,42.0,-51.70000076293945,8.349658966064453,43.24442672729492,-38.885955810546875,0,6.988312721252441,-6.43987512588501,2.103562593460083,-0.003490658476948738,0.004363323096185923,-0.003490658476948738,108.27763127928075,46.07441157472621,36.276741314886344
79.69,562562,-1.2000000476837158,42.0,-51.29999923706055,8.47535228729248,43.26083755493164,-38.660499572753906,0,6.980999946594238,-6.4447503089904785,2.0840625762939453,-0.003490658476948738,0.005235987715423107,-0.00043633230961859226,108.28937196550211,46.078410264727566,36.685093901742064
81.09,563963,-1.2000000476837158,42.10000228881836,-51.29999923706055,8.40473747253418,43.229644775390625,-38.3445930480957,0,6.998062610626221,-6.4447503089904785,2.110875129699707,-0.003926991019397974,0.004363323096185923,-0.004363323096185923,108.30106997267144,46.08031074246252,37.107929412057516
82.48,565353,-1.3000000715255737,42.0,-51.400001525878906,8.312785148620605,43.22523498535156,-38.67084884643555,0,7.000500202178955,-6.454500198364258,2.081624984741211,-0.003054326167330146,0.006108652334660292,-0.005235987715423107,108.30890047298779,46.080968222333404,37.538376858853
83.88,566753,-1.100000023841858,42.0,-51.70000076293945,8.406225204467773,43.10749816894531,-38.748260498046875,0,7.0029377937316895,-6.452062606811523,2.0864999294281006,0.0008726646192371845,0.004363323096185923,-0.0021816615480929613,108.30902370271589,46.080587646979694,37.97109094856661
85.28,568153,-1.3000000715255737,41.900001525878906,-51.400001525878906,8.365219116210938,43.174198150634766,-38.77586364746094,0,6.968812465667725,-6.432562828063965,2.096250057220459,-0.0013089969288557768,0.005235987715423107,0.0021816615480929613,108.3081045989915,46.07628587409969,38.41409887392122
86.68,569553,-1.100000023841858,41.900001525878906,-51.79999923706055,8.457490921020508,43.11331558227539,-39.09623718261719,0,7.0029377937316895,-6.449625015258789,2.1059999465942383,-0.0013089969288557768,0.003054326167330146,-0.0013089969288557768,108.30608138286016,46.080289129448225,38.86431400720014
88.07,570943,-1.3000000715255737,42.0,-51.20000076293945,8.335627555847168,43.127017974853516,-38.49789047241211,0,6.985875129699707,-6.452062606811523,2.110875129699707,-0.0026179938577115536,0.004363323096185923,-0.003926991019397974,108.3096574919266,46.086454059273144,39.33216569487169
89.46,572333,-1.399999976158142,42.10000228881836,-50.70000076293945,8.275900840759277,43.21213150024414,-38.13469696044922,0,7.012687683105469,-6.456937789916992,2.096250057220459,-0.0026179938577115536,0.006981316953897476,-0.003926991019397974,108.30721701246291,46.09381557372381,39.80458382576963
90.86,573731,-1.2000000476837158,41.60000228881836,-51.0,8.487208366394043,42.91414260864258,-38.47359848022461,0,7.000500202178955,-6.456937789916992,2.0986876487731934,-0.005235987715423107,0.003490658476948738,-0.003054326167330146,108.30915550222998,46.099186429054164,40.29099479950149
92.25,575122,-1.2000000476837158,41.70000076293945,-52.0,8.522367477416992,42.92216873168945,-39.06464385986328,0,7.0078125,-6.449625015258789,2.0938124656677246,-0.010471975430846214,-0.0013089969288557768,0.0,108.29776939357438,46.10597388270318,40.790099732615126
93.65,576523,-1.100000023841858,41.70000076293945,-51.20000076293945,8.564743995666504,42.935001373291016,-38.549102783203125,0,6.985875129699707,-6.437437534332275,2.088937520980835,-0.004363323096185923,0.0047996556386351585,-0.003054326167330146,108.3139711156444,46.10459544084687,41.318507583691556
95.04,577914,-1.0,41.79999923706055,-51.5,8.691084861755371,42.975975036621094,-38.71550750732422,0,6.976125240325928,-6.473999977111816,2.1206250190734863,0.00043633230961859226,0.007417649496346712,-0.0008726646192371845,108.29858845896266,46.09612295847264,41.81993746609575
96.43,579303,-1.100000023841858,42.0,-50.400001525878906,8.614398956298828,43.09674072265625,-37.885440826416016,0,7.027312755584717,-6.461812496185303,2.096250057220459,-0.009162978269159794,0.0,-0.003926991019397974,108.34654689772864,46.09825233573708,42.38267348625102
97.82,580692,-1.3000000715255737,41.70000076293945,-51.5,8.449671745300293,43.044918060302734,-38.64298629760742,0,7.010250091552734,-6.434999942779541,2.103562593460083,-0.012653636746108532,-0.0008726646192371845,0.0008726646192371845,108.32875473084616,46.10224854623423,42.907469668004296
99.22,582092,-1.0,41.70000076293945,-50.79999923706055,8.622529029846191,43.02481460571289,-38.03996658325195,0,7.005374908447266,-6.4447503089904785,2.1011250019073486,0.0021816615480929613,0.006981316953897476,-0.003054326167330146,108.33621708783943,46.10259659213545,43.44481252049154
100.61,583484,-1.2000000476837158,42.0,-50.70000076293945,8.418492317199707,43.14741897583008,-38.18021774291992,0,7.0029377937316895,-6.437437534332275,2.0913751125335693,-0.005235987715423107,0.005235987715423107,-0.003490658476948738,108.35362076300896,46.0900643813601,43.96954659525313
